File: data/raw/20240321_C_GM0016_HL03_E01_CV50.DTA
EXPLAIN
TAG	CV
TITLE	LABEL	Cyclic Voltammetry	Test &Identifier
DATE	LABEL	3/21/2024	Date
TIME	LABEL	16:10:21	Time
NOTES	NOTES	1	&Notes...

PSTAT	PSTAT	REF600P-43058	Potentiostat
VINIT	POTEN	0.00000E+000	T	Initial &E (V)
VLIMIT1	POTEN	-6.00000E-001	F	Scan Limit &1 (V)
VLIMIT2	POTEN	8.00000E-001	F	Scan Limit &2 (V)
VFINAL	POTEN	0.00000E+000	T	Final &E (V)
SCANRATE	QUANT	4.99999E+001	&Scan Rate (mV/s)
STEPSIZE	QUANT	1.00000E+001	St&ep Size (mV)
CYCLES	IQUANT	4	C&ycles (#)
IMODE	SELECTOR	1	I/E Range &Mode
IRANGE	QUANT	1.00000E-005	&Max Current (mA)
AREA	QUANT	1.00000E+000	Electrode &Area (cm^2)
ELECTRODETYPE	SELECTOR	0	Electrode Type
STRIPPING	TOGGLE	F	Used for Stripping
POLARITY	TOGGLE	F	Signal Polarity
CONDIT	TWOPARAM	F	1.50000E+001	0.00000E+000	Conditionin&g	Time(s)	E(V)
DELAY	TWOPARAM	T	1.00000E+001	0.00000E+000	Init. De&lay	Time(s)	Stab.(mV/s)
EQDELAY	QUANT	1.00000E+001	Equil. &Time (s)
IRCOMP	SELECTOR	0	IRCom&p
PFCOR	QUANT	5.00000E+001	PF Corr. (ohm)
SAMPLINGMODE	SELECTOR	0	Sampling &Mode
OCVCURVE	TABLE	39
	Pt	T	Vf	Vm	Ach	Over	Temp
	#	s	V vs. Ref.	V	V	bits	deg C
	0	0.258333	1.47195E-001	1.47195E-001	2.30089E-004	..........a	-327.66
	1	0.516667	1.47201E-001	1.47476E-001	2.24289E-004	..........a	-327.66
	2	0.775	1.47234E-001	1.47777E-001	2.21956E-004	..........a	-327.66
	3	1.03333	1.47332E-001	1.48088E-001	2.16689E-004	..........a	-327.66
	4	1.29167	1.47513E-001	1.48410E-001	2.17089E-004	..........a	-327.66
	5	1.55	1.47766E-001	1.48729E-001	2.27356E-004	..........a	-327.66
	6	1.80833	1.48063E-001	1.49057E-001	2.21889E-004	..........a	-327.66
	7	2.06667	1.48380E-001	1.49376E-001	2.22622E-004	..........a	-327.66
	8	2.325	1.48703E-001	1.49699E-001	2.17022E-004	..........a	-327.66
	9	2.58333	1.49028E-001	1.50019E-001	2.26289E-004	..........a	-327.66
	10	2.84167	1.49351E-001	1.50343E-001	2.23956E-004	..........a	-327.66
	11	3.1	1.49673E-001	1.50664E-001	2.31156E-004	..........a	-327.66
	12	3.35833	1.49995E-001	1.50988E-001	2.21889E-004	..........a	-327.66
	13	3.61667	1.50317E-001	1.51305E-001	2.15556E-004	..........a	-327.66
	14	3.875	1.50639E-001	1.51626E-001	2.19022E-004	..........a	-327.66
	15	4.13333	1.50960E-001	1.51937E-001	2.25622E-004	..........a	-327.66
	16	4.39167	1.51280E-001	1.52259E-001	2.14822E-004	..........a	-327.66
	17	4.65	1.51598E-001	1.52573E-001	2.27756E-004	..........a	-327.66
	18	4.90833	1.51915E-001	1.52887E-001	2.29822E-004	..........a	-327.66
	19	5.16667	1.52232E-001	1.53205E-001	2.16756E-004	..........a	-327.66
	20	5.425	1.52548E-001	1.53520E-001	2.24289E-004	..........a	-327.66
	21	5.68333	1.52864E-001	1.53832E-001	2.18022E-004	..........a	-327.66
	22	5.94167	1.53179E-001	1.54150E-001	2.21822E-004	..........a	-327.66
	23	6.2	1.53494E-001	1.54458E-001	2.25622E-004	..........a	-327.66
	24	6.45833	1.53809E-001	1.54774E-001	2.14956E-004	..........a	-327.66
	25	6.71667	1.54122E-001	1.55082E-001	2.27689E-004	..........a	-327.66
	26	6.975	1.54435E-001	1.55395E-001	2.32756E-004	..........a	-327.66
	27	7.23333	1.54747E-001	1.55702E-001	2.26622E-004	..........a	-327.66
	28	7.49167	1.55058E-001	1.56008E-001	2.23289E-004	..........a	-327.66
	29	7.75	1.55368E-001	1.56309E-001	2.19356E-004	..........a	-327.66
	30	8.00833	1.55676E-001	1.56612E-001	2.20689E-004	..........a	-327.66
	31	8.26667	1.55982E-001	1.56913E-001	2.18489E-004	..........a	-327.66
	32	8.525	1.56286E-001	1.57220E-001	2.19489E-004	..........a	-327.66
	33	8.78333	1.56589E-001	1.57509E-001	2.18489E-004	..........a	-327.66
	34	9.04167	1.56890E-001	1.57815E-001	2.23956E-004	..........a	-327.66
	35	9.3	1.57191E-001	1.58119E-001	2.21889E-004	..........a	-327.66
	36	9.5583	1.57491E-001	1.58419E-001	2.31889E-004	..........a	-327.66
	37	9.8167	1.57792E-001	1.58711E-001	2.30289E-004	..........a	-327.66
	38	10.075	1.58092E-001	1.59005E-001	2.18489E-004	..........a	-327.66
EOC	QUANT	0.1580925	Open Circuit (V)
PSTATMODEL	IQUANT	7	Pstat Model
PSTATSECTION	LABEL	REF600P-43058	Pstat Section
PSTATSERIALNO	LABEL	43058	Pstat Serial Number
CTRLMODE	IQUANT	1	Control Mode
ELECTROMETER	IQUANT	0	RE=0 or CS=1
IESTAB	IQUANT	2	I/E Stability
CASPEED	IQUANT	4	Control Amp Speed
CONVENTION	IQUANT	1	Current Convention
ICHRANGE	IQUANT	2	Ich Range
ICHRANGEMODE	TOGGLE	F	Ich Auto Range
ICHOFFSETENABLE	TOGGLE	F	Ich Offset Enable
ICHOFFSET	QUANT	0	Ich Offset (V)
ICHFILTER	IQUANT	2	Ich Filter
VCHRANGE	IQUANT	2	Vch Range
VCHRANGEMODE	TOGGLE	F	Vch Auto Range
VCHOFFSETENABLE	TOGGLE	F	Vch Offset Enable
VCHOFFSET	QUANT	0	Vch Offset (V)
VCHFILTER	IQUANT	2	Vch Filter
ACHRANGE	IQUANT	2	Ach Range
ACHOFFSETENABLE	TOGGLE	F	Ach Offset Enable
ACHOFFSET	QUANT	0	Ach Offset (V)
ACHFILTER	IQUANT	1	Ach Filter
IERANGELOWERLIMIT	IQUANT	1	I/E Range Lower Limit
IERANGEMODE	TOGGLE	F	I/E AutoRange
IERANGE	IQUANT	4	I/E Range
POSFEEDENABLE	TOGGLE	F	Positive Feedback IR Comp
POSFEEDRESISTANCE	QUANT	0	Positive Feedback Resistance (ohm)
ACHSELECT	IQUANT	4	Ach Select
SENSECABLEID	IQUANT	7	Sense Cable ID
PWRCABLEID	IQUANT	7	Power Cable ID
DCCALDATE	LABEL	12/18/2023	DC Calibration Date
ACCALDATE	LABEL	12/18/2023	AC Calibration Date
THERMOSELECT	IQUANT	1	Thermo Select
FRAMEWORKVERSION	LABEL	7.8.4	Framework Version
INSTRUMENTVERSION	LABEL	4.42	Instrument Version
CURVE1	TABLE
	Pt	T	Vf	Im	Vu	Sig	Ach	IERange	Over	Temp
	#	s	V vs. Ref.	A	V	V	V	#	bits	deg C
	0	0.2	1.58214E-001	7.01007E-012	0.00000E+000	1.58100E-001	8.00223E-005	4	...........	 0.01
	1	0.4	1.48214E-001	-2.29911E-011	0.00000E+000	1.48100E-001	8.00223E-005	4	...........	 0.01
	2	0.6	1.38214E-001	-3.49915E-011	0.00000E+000	1.38100E-001	-3.19978E-004	4	...........	 0.01
	3	0.8	1.28214E-001	-4.09918E-011	0.00000E+000	1.28100E-001	8.00223E-005	4	...........	 0.01
	4	1	1.18014E-001	-5.09922E-011	0.00000E+000	1.18100E-001	8.00223E-005	4	...........	 0.01
	5	1.2	1.08214E-001	-5.49923E-011	0.00000E+000	1.08100E-001	8.00223E-005	4	...........	 0.01
	6	1.4	9.84138E-002	-5.49923E-011	0.00000E+000	9.81000E-002	8.00223E-005	4	...........	 0.01
	7	1.6	8.82138E-002	-5.69924E-011	0.00000E+000	8.81000E-002	8.00223E-005	4	...........	 0.01
	8	1.8	7.80138E-002	-6.09925E-011	0.00000E+000	7.81000E-002	8.00223E-005	4	...........	 0.01
	9	2	6.80138E-002	-6.29926E-011	0.00000E+000	6.81000E-002	8.00223E-005	4	...........	 0.01
	10	2.2	5.82138E-002	-6.69928E-011	0.00000E+000	5.81000E-002	8.00223E-005	4	...........	 0.01
	11	2.4	4.82138E-002	-6.89928E-011	0.00000E+000	4.81000E-002	8.00223E-005	4	...........	 0.01
	12	2.6	3.84138E-002	-7.09929E-011	0.00000E+000	3.81000E-002	8.00223E-005	4	...........	 0.01
	13	2.8	2.82138E-002	-8.09933E-011	0.00000E+000	2.81000E-002	8.00223E-005	4	...........	 0.01
	14	3	1.84138E-002	-7.89932E-011	0.00000E+000	1.81000E-002	8.00223E-005	4	...........	 0.01
	15	3.2	8.21379E-003	-8.29934E-011	0.00000E+000	8.10000E-003	8.00223E-005	4	...........	 0.01
	16	3.4	-1.78621E-003	-8.69935E-011	0.00000E+000	-1.89999E-003	8.00223E-005	4	...........	 0.01
	17	3.6	-1.17862E-002	-9.49938E-011	0.00000E+000	-1.19000E-002	8.00223E-005	4	...........	 0.01
	18	3.8	-2.19862E-002	-9.89940E-011	0.00000E+000	-2.19000E-002	-2.19978E-004	4	...........	 0.01
	19	4	-3.17862E-002	-1.04994E-010	0.00000E+000	-3.19000E-002	8.00223E-005	4	...........	 0.01
	20	4.2	-4.19862E-002	-1.10994E-010	0.00000E+000	-4.19000E-002	8.00223E-005	4	...........	 0.01
	21	4.4	-5.17862E-002	-1.26995E-010	0.00000E+000	-5.19000E-002	8.00223E-005	4	...........	 0.01
	22	4.6	-6.17862E-002	-1.34995E-010	0.00000E+000	-6.19000E-002	8.00223E-005	4	...........	 0.01
	23	4.8	-7.17862E-002	-1.52996E-010	0.00000E+000	-7.19000E-002	8.00223E-005	4	...........	 0.01
	24	5	-8.17862E-002	-1.72997E-010	0.00000E+000	-8.19000E-002	-3.19978E-004	4	...........	 0.01
	25	5.2	-9.17862E-002	-1.96998E-010	0.00000E+000	-9.19000E-002	8.00223E-005	4	...........	 0.01
	26	5.4	-1.01786E-001	-2.26999E-010	0.00000E+000	-1.01900E-001	8.00223E-005	4	...........	 0.01
	27	5.6	-1.11786E-001	-2.71001E-010	0.00000E+000	-1.11900E-001	8.00223E-005	4	...........	 0.01
	28	5.8	-1.21786E-001	-3.21003E-010	0.00000E+000	-1.21900E-001	8.00223E-005	4	...........	 0.01
	29	6	-1.31786E-001	-3.83005E-010	0.00000E+000	-1.31900E-001	8.00223E-005	4	...........	 0.01
	30	6.2	-1.41786E-001	-4.71008E-010	0.00000E+000	-1.41900E-001	8.00223E-005	4	...........	 0.01
	31	6.4	-1.51786E-001	-5.79012E-010	0.00000E+000	-1.51900E-001	8.00223E-005	4	...........	 0.01
	32	6.6	-1.61986E-001	-7.13018E-010	0.00000E+000	-1.61900E-001	8.00223E-005	4	...........	 0.01
	33	6.8	-1.71586E-001	-8.83024E-010	0.00000E+000	-1.71900E-001	-3.19978E-004	4	...........	 0.01
	34	7	-1.81786E-001	-1.09703E-009	0.00000E+000	-1.81900E-001	8.00223E-005	4	...........	 0.01
	35	7.2	-1.91786E-001	-1.35104E-009	0.00000E+000	-1.91900E-001	-1.19978E-004	4	...........	 0.01
	36	7.4	-2.01586E-001	-1.65105E-009	0.00000E+000	-2.01900E-001	8.00223E-005	4	...........	 0.01
	37	7.6	-2.11786E-001	-1.99907E-009	0.00000E+000	-2.11900E-001	8.00223E-005	4	...........	 0.01
	38	7.8	-2.21586E-001	-2.39508E-009	0.00000E+000	-2.21900E-001	8.00223E-005	4	...........	 0.01
	39	8	-2.31786E-001	-2.82510E-009	0.00000E+000	-2.31900E-001	8.00223E-005	4	...........	 0.01
	40	8.2	-2.41586E-001	-3.28312E-009	0.00000E+000	-2.41900E-001	8.00223E-005	4	...........	 0.01
	41	8.4	-2.51786E-001	-3.76714E-009	0.00000E+000	-2.51900E-001	-3.19978E-004	4	...........	 0.01
	42	8.6	-2.61586E-001	-4.25115E-009	0.00000E+000	-2.61900E-001	8.00223E-005	4	...........	 0.01
	43	8.8	-2.71786E-001	-4.72517E-009	0.00000E+000	-2.71900E-001	8.00223E-005	4	...........	 0.01
	44	9	-2.81686E-001	-5.18119E-009	0.00000E+000	-2.81900E-001	8.00223E-005	4	...........	 0.01
	45	9.2	-2.91786E-001	-5.60321E-009	0.00000E+000	-2.91900E-001	8.00223E-005	4	...........	 0.01
	46	9.4	-3.01586E-001	-5.99522E-009	0.00000E+000	-3.01900E-001	8.00223E-005	4	...........	 0.01
	47	9.6	-3.11386E-001	-6.34523E-009	0.00000E+000	-3.11900E-001	-3.19978E-004	4	...........	 0.01
	48	9.8	-3.21786E-001	-6.66325E-009	0.00000E+000	-3.21900E-001	8.00223E-005	4	...........	 0.01
	49	10	-3.31786E-001	-6.94726E-009	0.00000E+000	-3.31900E-001	8.00223E-005	4	...........	 0.01
	50	10.2	-3.41586E-001	-7.19327E-009	0.00000E+000	-3.41900E-001	8.00223E-005	4	...........	 0.01
	51	10.4	-3.51586E-001	-7.41527E-009	0.00000E+000	-3.51900E-001	8.00223E-005	4	...........	 0.01
	52	10.6	-3.61586E-001	-7.61528E-009	0.00000E+000	-3.61900E-001	8.00223E-005	4	...........	 0.01
	53	10.8	-3.71786E-001	-7.78729E-009	0.00000E+000	-3.71900E-001	8.00223E-005	4	...........	 0.01
	54	11	-3.81786E-001	-7.94129E-009	0.00000E+000	-3.81900E-001	8.00223E-005	4	...........	 0.01
	55	11.2	-3.91786E-001	-8.09930E-009	0.00000E+000	-3.91900E-001	8.00223E-005	4	...........	 0.01
	56	11.4	-4.01786E-001	-8.23331E-009	0.00000E+000	-4.01900E-001	8.00223E-005	4	...........	 0.01
	57	11.6	-4.11786E-001	-8.36931E-009	0.00000E+000	-4.11900E-001	8.00223E-005	4	...........	 0.01
	58	11.8	-4.21386E-001	-8.49132E-009	0.00000E+000	-4.21900E-001	8.00223E-005	4	...........	 0.01
	59	12	-4.31786E-001	-8.61532E-009	0.00000E+000	-4.31900E-001	8.00223E-005	4	...........	 0.01
	60	12.2	-4.41586E-001	-8.74333E-009	0.00000E+000	-4.41900E-001	8.00223E-005	4	...........	 0.01
	61	12.4	-4.51786E-001	-8.86933E-009	0.00000E+000	-4.51900E-001	8.00223E-005	4	...........	 0.01
	62	12.6	-4.61586E-001	-8.99934E-009	0.00000E+000	-4.61900E-001	8.00223E-005	4	...........	 0.01
	63	12.8	-4.71786E-001	-9.13134E-009	0.00000E+000	-4.71900E-001	8.00223E-005	4	...........	 0.01
	64	13	-4.81786E-001	-9.28335E-009	0.00000E+000	-4.81900E-001	8.00223E-005	4	...........	 0.01
	65	13.2	-4.91586E-001	-9.43135E-009	0.00000E+000	-4.91900E-001	8.00223E-005	4	...........	 0.01
	66	13.4	-5.01686E-001	-9.59536E-009	0.00000E+000	-5.01900E-001	8.00223E-005	4	...........	 0.01
	67	13.6	-5.11386E-001	-9.76736E-009	0.00000E+000	-5.11900E-001	8.00223E-005	4	...........	 0.01
	68	13.8	-5.21586E-001	-9.96537E-009	0.00000E+000	-5.21900E-001	8.00223E-005	4	...........	 0.01
	69	14	-5.31786E-001	-1.01734E-008	0.00000E+000	-5.31900E-001	8.00223E-005	4	...........	 0.01
	70	14.2	-5.41586E-001	-1.04074E-008	0.00000E+000	-5.41900E-001	8.00223E-005	4	...........	 0.01
	71	14.4	-5.51786E-001	-1.06594E-008	0.00000E+000	-5.51900E-001	8.00223E-005	4	...........	 0.01
	72	14.6	-5.61586E-001	-1.09194E-008	0.00000E+000	-5.61900E-001	8.00223E-005	4	...........	 0.01
	73	14.8	-5.71786E-001	-1.12074E-008	0.00000E+000	-5.71900E-001	8.00223E-005	4	...........	 0.01
	74	15	-5.81586E-001	-1.15074E-008	0.00000E+000	-5.81900E-001	8.00223E-005	4	...........	 0.01
	75	15.2	-5.91586E-001	-1.18274E-008	0.00000E+000	-5.91900E-001	8.00223E-005	4	...........	 0.01
	76	15.4	-6.01786E-001	-1.21515E-008	0.00000E+000	-6.01900E-001	8.00223E-005	4	...........	 0.01
	77	15.6	-5.91786E-001	-1.16634E-008	0.00000E+000	-5.91900E-001	8.00223E-005	4	...........	 0.01
	78	15.8	-5.81586E-001	-1.12594E-008	0.00000E+000	-5.81900E-001	8.00223E-005	4	...........	 0.01
	79	16	-5.71786E-001	-1.09154E-008	0.00000E+000	-5.71900E-001	8.00223E-005	4	...........	 0.01
	80	16.2	-5.61586E-001	-1.05994E-008	0.00000E+000	-5.61900E-001	8.00223E-005	4	...........	 0.01
	81	16.4	-5.51786E-001	-1.03194E-008	0.00000E+000	-5.51900E-001	8.00223E-005	4	...........	 0.01
	82	16.6	-5.41786E-001	-1.00554E-008	0.00000E+000	-5.41900E-001	8.00223E-005	4	...........	 0.01
	83	16.8	-5.31786E-001	-9.81137E-009	0.00000E+000	-5.31900E-001	8.00223E-005	4	...........	 0.01
	84	17	-5.21586E-001	-9.58336E-009	0.00000E+000	-5.21900E-001	-3.19978E-004	4	...........	 0.01
	85	17.2	-5.11786E-001	-9.36735E-009	0.00000E+000	-5.11900E-001	8.00223E-005	4	...........	 0.01
	86	17.4	-5.01786E-001	-9.16334E-009	0.00000E+000	-5.01900E-001	8.00223E-005	4	...........	 0.01
	87	17.6	-4.91786E-001	-8.96733E-009	0.00000E+000	-4.91900E-001	8.00223E-005	4	...........	 0.01
	88	17.8	-4.81786E-001	-8.78533E-009	0.00000E+000	-4.81900E-001	8.00223E-005	4	...........	 0.01
	89	18	-4.71786E-001	-8.60732E-009	0.00000E+000	-4.71900E-001	8.00223E-005	4	...........	 0.01
	90	18.2	-4.61586E-001	-8.43931E-009	0.00000E+000	-4.61900E-001	8.00223E-005	4	...........	 0.01
	91	18.4	-4.51786E-001	-8.27331E-009	0.00000E+000	-4.51900E-001	8.00223E-005	4	...........	 0.01
	92	18.6	-4.41586E-001	-8.10530E-009	0.00000E+000	-4.41900E-001	8.00223E-005	4	...........	 0.01
	93	18.8	-4.31786E-001	-7.95329E-009	0.00000E+000	-4.31900E-001	8.00223E-005	4	...........	 0.01
	94	19	-4.21586E-001	-7.79129E-009	0.00000E+000	-4.21900E-001	8.00223E-005	4	...........	 0.01
	95	19.2	-4.11786E-001	-7.63528E-009	0.00000E+000	-4.11900E-001	8.00223E-005	4	...........	 0.01
	96	19.4	-4.01786E-001	-7.47928E-009	0.00000E+000	-4.01900E-001	8.00223E-005	4	...........	 0.01
	97	19.6	-3.91786E-001	-7.30527E-009	0.00000E+000	-3.91900E-001	8.00223E-005	4	...........	 0.01
	98	19.8	-3.81586E-001	-7.13526E-009	0.00000E+000	-3.81900E-001	8.00223E-005	4	...........	 0.01
	99	20	-3.71786E-001	-6.95126E-009	0.00000E+000	-3.71900E-001	8.00223E-005	4	...........	 0.01
	100	20.2	-3.61586E-001	-6.75125E-009	0.00000E+000	-3.61900E-001	8.00223E-005	4	...........	 0.01
	101	20.4	-3.51786E-001	-6.53724E-009	0.00000E+000	-3.51900E-001	8.00223E-005	4	...........	 0.01
	102	20.6	-3.41586E-001	-6.30723E-009	0.00000E+000	-3.41900E-001	8.00223E-005	4	...........	 0.01
	103	20.8	-3.31786E-001	-6.05522E-009	0.00000E+000	-3.31900E-001	8.00223E-005	4	...........	 0.01
	104	21	-3.21786E-001	-5.77521E-009	0.00000E+000	-3.21900E-001	8.00223E-005	4	...........	 0.01
	105	21.2	-3.11786E-001	-5.47120E-009	0.00000E+000	-3.11900E-001	8.00223E-005	4	...........	 0.01
	106	21.4	-3.01786E-001	-5.14719E-009	0.00000E+000	-3.01900E-001	8.00223E-005	4	...........	 0.01
	107	21.6	-2.91786E-001	-4.79317E-009	0.00000E+000	-2.91900E-001	8.00223E-005	4	...........	 0.01
	108	21.8	-2.81786E-001	-4.41916E-009	0.00000E+000	-2.81900E-001	8.00223E-005	4	...........	 0.01
	109	22	-2.71786E-001	-4.01114E-009	0.00000E+000	-2.71900E-001	8.00223E-005	4	...........	 0.01
	110	22.2	-2.61586E-001	-3.60713E-009	0.00000E+000	-2.61900E-001	8.00223E-005	4	...........	 0.01
	111	22.4	-2.51786E-001	-3.19111E-009	0.00000E+000	-2.51900E-001	8.00223E-005	4	...........	 0.01
	112	22.6	-2.41786E-001	-2.78110E-009	0.00000E+000	-2.41900E-001	8.00223E-005	4	...........	 0.01
	113	22.8	-2.31986E-001	-2.37908E-009	0.00000E+000	-2.31900E-001	8.00223E-005	4	...........	 0.01
	114	23	-2.21786E-001	-1.99907E-009	0.00000E+000	-2.21900E-001	8.00223E-005	4	...........	 0.01
	115	23.2	-2.11786E-001	-1.64705E-009	0.00000E+000	-2.11900E-001	8.00223E-005	4	...........	 0.01
	116	23.4	-2.01586E-001	-1.33504E-009	0.00000E+000	-2.01900E-001	8.00223E-005	4	...........	 0.01
	117	23.6	-1.91986E-001	-1.05503E-009	0.00000E+000	-1.91900E-001	-3.19978E-004	4	...........	 0.01
	118	23.8	-1.81786E-001	-8.15021E-010	0.00000E+000	-1.81900E-001	8.00223E-005	4	...........	 0.01
	119	24	-1.71786E-001	-6.09014E-010	0.00000E+000	-1.71900E-001	8.00223E-005	4	...........	 0.01
	120	24.2	-1.61786E-001	-4.39007E-010	0.00000E+000	-1.61900E-001	8.00223E-005	4	...........	 0.01
	121	24.4	-1.51786E-001	-2.95002E-010	0.00000E+000	-1.51900E-001	8.00223E-005	4	...........	 0.01
	122	24.6	-1.41786E-001	-1.86997E-010	0.00000E+000	-1.41900E-001	8.00223E-005	4	...........	 0.01
	123	24.8	-1.31986E-001	-1.00994E-010	0.00000E+000	-1.31900E-001	8.00223E-005	4	...........	 0.01
	124	25	-1.21786E-001	-2.49912E-011	0.00000E+000	-1.21900E-001	8.00223E-005	4	...........	 0.01
	125	25.2	-1.11786E-001	2.10106E-011	0.00000E+000	-1.11900E-001	8.00223E-005	4	...........	 0.01
	126	25.4	-1.01786E-001	5.70120E-011	0.00000E+000	-1.01900E-001	8.00223E-005	4	...........	 0.01
	127	25.6	-9.17862E-002	9.30134E-011	0.00000E+000	-9.19000E-002	8.00223E-005	4	...........	 0.01
	128	25.8	-8.17862E-002	1.11014E-010	0.00000E+000	-8.19000E-002	8.00223E-005	4	...........	 0.01
	129	26	-7.17862E-002	1.27015E-010	0.00000E+000	-7.19000E-002	8.00223E-005	4	...........	 0.01
	130	26.2	-6.17862E-002	1.37015E-010	0.00000E+000	-6.19000E-002	8.00223E-005	4	...........	 0.01
	131	26.4	-5.17862E-002	1.45015E-010	0.00000E+000	-5.19000E-002	8.00223E-005	4	...........	 0.01
	132	26.6	-4.17862E-002	1.59016E-010	0.00000E+000	-4.19000E-002	-3.19978E-004	4	...........	 0.01
	133	26.8	-3.17862E-002	1.53016E-010	0.00000E+000	-3.19000E-002	8.00223E-005	4	...........	 0.01
	134	27	-2.17862E-002	1.53016E-010	0.00000E+000	-2.19000E-002	8.00223E-005	4	...........	 0.01
	135	27.2	-1.17862E-002	1.59016E-010	0.00000E+000	-1.19000E-002	8.00223E-005	4	...........	 0.01
	136	27.4	-1.78621E-003	1.61016E-010	0.00000E+000	-1.89999E-003	8.00223E-005	4	...........	 0.01
	137	27.6	8.21379E-003	1.61016E-010	0.00000E+000	8.10000E-003	8.00223E-005	4	...........	 0.01
	138	27.8	1.80138E-002	1.57016E-010	0.00000E+000	1.81000E-002	8.00223E-005	4	...........	 0.01
	139	28	2.80138E-002	1.57016E-010	0.00000E+000	2.81000E-002	8.00223E-005	4	...........	 0.01
	140	28.2	3.86138E-002	1.61016E-010	0.00000E+000	3.81000E-002	8.00223E-005	4	...........	 0.01
	141	28.4	4.82138E-002	1.59016E-010	0.00000E+000	4.81000E-002	8.00223E-005	4	...........	 0.01
	142	28.6	5.79138E-002	1.63016E-010	0.00000E+000	5.81000E-002	8.00223E-005	4	...........	 0.01
	143	28.8	6.84138E-002	1.53016E-010	0.00000E+000	6.81000E-002	8.00223E-005	4	...........	 0.01
	144	29	7.80138E-002	1.57016E-010	0.00000E+000	7.81000E-002	8.00223E-005	4	...........	 0.01
	145	29.2	8.82138E-002	1.61016E-010	0.00000E+000	8.81000E-002	8.00223E-005	4	...........	 0.01
	146	29.4	9.84138E-002	1.61016E-010	0.00000E+000	9.81000E-002	8.00223E-005	4	...........	 0.01
	147	29.6	1.08214E-001	1.63016E-010	0.00000E+000	1.08100E-001	8.00223E-005	4	...........	 0.01
	148	29.8	1.18214E-001	1.61016E-010	0.00000E+000	1.18100E-001	8.00223E-005	4	...........	 0.01
	149	30	1.28214E-001	1.61016E-010	0.00000E+000	1.28100E-001	8.00223E-005	4	...........	 0.01
	150	30.2	1.38214E-001	1.69016E-010	0.00000E+000	1.38100E-001	8.00223E-005	4	...........	 0.01
	151	30.4	1.48214E-001	1.69016E-010	0.00000E+000	1.48100E-001	8.00223E-005	4	...........	 0.01
	152	30.6	1.58214E-001	1.79017E-010	0.00000E+000	1.58100E-001	8.00223E-005	4	...........	 0.01
	153	30.8	1.67814E-001	1.83017E-010	0.00000E+000	1.68100E-001	8.00223E-005	4	...........	 0.01
	154	31	1.78214E-001	1.93017E-010	0.00000E+000	1.78100E-001	8.00223E-005	4	...........	 0.01
	155	31.2	1.88214E-001	2.01018E-010	0.00000E+000	1.88100E-001	8.00223E-005	4	...........	 0.01
	156	31.4	1.98214E-001	2.17018E-010	0.00000E+000	1.98100E-001	8.00223E-005	4	...........	 0.01
	157	31.6	2.08214E-001	2.21018E-010	0.00000E+000	2.08100E-001	8.00223E-005	4	...........	 0.01
	158	31.8	2.18314E-001	2.33019E-010	0.00000E+000	2.18100E-001	8.00223E-005	4	...........	 0.01
	159	32	2.27914E-001	2.41019E-010	0.00000E+000	2.28100E-001	8.00223E-005	4	...........	 0.01
	160	32.2	2.38214E-001	2.45019E-010	0.00000E+000	2.38100E-001	8.00223E-005	4	...........	 0.01
	161	32.4	2.48214E-001	2.47019E-010	0.00000E+000	2.48100E-001	8.00223E-005	4	...........	 0.01
	162	32.6	2.58214E-001	2.47019E-010	0.00000E+000	2.58100E-001	8.00223E-005	4	...........	 0.01
	163	32.8	2.68014E-001	2.49019E-010	0.00000E+000	2.68100E-001	8.00223E-005	4	...........	 0.01
	164	33	2.78214E-001	2.47019E-010	0.00000E+000	2.78100E-001	8.00223E-005	4	...........	 0.01
	165	33.2	2.88214E-001	2.47019E-010	0.00000E+000	2.88100E-001	8.00223E-005	4	...........	 0.01
	166	33.4	2.98014E-001	2.49019E-010	0.00000E+000	2.98100E-001	-3.19978E-004	4	...........	 0.01
	167	33.6	3.08214E-001	2.47019E-010	0.00000E+000	3.08100E-001	8.00223E-005	4	...........	 0.01
	168	33.8	3.18014E-001	2.41019E-010	0.00000E+000	3.18100E-001	8.00223E-005	4	...........	 0.01
	169	34	3.28214E-001	2.33019E-010	0.00000E+000	3.28100E-001	8.00223E-005	4	...........	 0.01
	170	34.2	3.38014E-001	2.33019E-010	0.00000E+000	3.38100E-001	8.00223E-005	4	...........	 0.01
	171	34.4	3.48214E-001	2.31019E-010	0.00000E+000	3.48100E-001	8.00223E-005	4	...........	 0.01
	172	34.6	3.58014E-001	2.21018E-010	0.00000E+000	3.58100E-001	8.00223E-005	4	...........	 0.01
	173	34.8	3.68214E-001	2.17018E-010	0.00000E+000	3.68100E-001	-4.19978E-004	4	...........	 0.01
	174	35	3.78014E-001	2.21018E-010	0.00000E+000	3.78100E-001	8.00223E-005	4	...........	 0.01
	175	35.2	3.88214E-001	2.15018E-010	0.00000E+000	3.88100E-001	-3.19978E-004	4	...........	 0.01
	176	35.4	3.98214E-001	2.15018E-010	0.00000E+000	3.98100E-001	8.00223E-005	4	...........	 0.01
	177	35.6	4.08214E-001	2.15018E-010	0.00000E+000	4.08100E-001	8.00223E-005	4	...........	 0.01
	178	35.8	4.18214E-001	2.15018E-010	0.00000E+000	4.18100E-001	8.00223E-005	4	...........	 0.01
	179	36	4.28114E-001	2.07018E-010	0.00000E+000	4.28100E-001	8.00223E-005	4	...........	 0.01
	180	36.2	4.37714E-001	2.07018E-010	0.00000E+000	4.38100E-001	8.00223E-005	4	...........	 0.01
	181	36.4	4.48214E-001	2.09018E-010	0.00000E+000	4.48100E-001	8.00223E-005	4	...........	 0.01
	182	36.6	4.58214E-001	2.13018E-010	0.00000E+000	4.58100E-001	8.00223E-005	4	...........	 0.01
	183	36.8	4.68214E-001	2.09018E-010	0.00000E+000	4.68100E-001	8.00223E-005	4	...........	 0.01
	184	37	4.78014E-001	2.15018E-010	0.00000E+000	4.78100E-001	8.00223E-005	4	...........	 0.01
	185	37.2	4.88214E-001	2.07018E-010	0.00000E+000	4.88100E-001	8.00223E-005	4	...........	 0.01
	186	37.4	4.98214E-001	2.09018E-010	0.00000E+000	4.98100E-001	8.00223E-005	4	...........	 0.01
	187	37.6	5.08214E-001	2.07018E-010	0.00000E+000	5.08100E-001	8.00223E-005	4	...........	 0.01
	188	37.8	5.18014E-001	2.09018E-010	0.00000E+000	5.18100E-001	8.00223E-005	4	...........	 0.01
	189	38	5.28214E-001	2.15018E-010	0.00000E+000	5.28100E-001	8.00223E-005	4	...........	 0.01
	190	38.2	5.38014E-001	2.09018E-010	0.00000E+000	5.38100E-001	8.00223E-005	4	...........	 0.01
	191	38.4	5.48214E-001	2.15018E-010	0.00000E+000	5.48100E-001	8.00223E-005	4	...........	 0.01
	192	38.6	5.58214E-001	2.17018E-010	0.00000E+000	5.58100E-001	8.00223E-005	4	...........	 0.01
	193	38.8	5.68214E-001	2.15018E-010	0.00000E+000	5.68100E-001	8.00223E-005	4	...........	 0.01
	194	39	5.77414E-001	2.19018E-010	0.00000E+000	5.78100E-001	8.00223E-005	4	...........	 0.01
	195	39.2	5.88014E-001	2.21018E-010	0.00000E+000	5.88100E-001	8.00223E-005	4	...........	 0.01
	196	39.4	5.98214E-001	2.31019E-010	0.00000E+000	5.98100E-001	8.00223E-005	4	...........	 0.01
	197	39.6	6.07914E-001	2.31019E-010	0.00000E+000	6.08100E-001	8.00223E-005	4	...........	 0.01
	198	39.8	6.18314E-001	2.31019E-010	0.00000E+000	6.18100E-001	8.00223E-005	4	...........	 0.01
	199	40	6.28014E-001	2.33019E-010	0.00000E+000	6.28100E-001	8.00223E-005	4	...........	 0.01
	200	40.2	6.37914E-001	2.37019E-010	0.00000E+000	6.38100E-001	8.00223E-005	4	...........	 0.01
	201	40.4	6.48014E-001	2.47019E-010	0.00000E+000	6.48100E-001	8.00223E-005	4	...........	 0.01
	202	40.6	6.57814E-001	2.41019E-010	0.00000E+000	6.58100E-001	8.00223E-005	4	...........	 0.01
	203	40.8	6.68014E-001	2.47019E-010	0.00000E+000	6.68100E-001	8.00223E-005	4	...........	 0.01
	204	41	6.78014E-001	2.49019E-010	0.00000E+000	6.78100E-001	8.00223E-005	4	...........	 0.01
	205	41.2	6.88014E-001	2.55020E-010	0.00000E+000	6.88100E-001	8.00223E-005	4	...........	 0.01
	206	41.4	6.97914E-001	2.61020E-010	0.00000E+000	6.98100E-001	8.00223E-005	4	...........	 0.01
	207	41.6	7.07914E-001	2.65020E-010	0.00000E+000	7.08100E-001	8.00223E-005	4	...........	 0.01
	208	41.8	7.18014E-001	2.69020E-010	0.00000E+000	7.18100E-001	8.00223E-005	4	...........	 0.01
	209	42	7.28014E-001	2.81021E-010	0.00000E+000	7.28100E-001	-3.19978E-004	4	...........	 0.01
	210	42.2	7.38414E-001	2.89021E-010	0.00000E+000	7.38100E-001	8.00223E-005	4	...........	 0.01
	211	42.4	7.48014E-001	3.07022E-010	0.00000E+000	7.48100E-001	8.00223E-005	4	...........	 0.01
	212	42.6	7.57814E-001	3.21022E-010	0.00000E+000	7.58100E-001	8.00223E-005	4	...........	 0.01
	213	42.8	7.68014E-001	3.43023E-010	0.00000E+000	7.68100E-001	8.00223E-005	4	...........	 0.01
	214	43	7.78014E-001	3.77024E-010	0.00000E+000	7.78100E-001	8.00223E-005	4	...........	 0.01
	215	43.2	7.88014E-001	4.13026E-010	0.00000E+000	7.88100E-001	8.00223E-005	4	...........	 0.01
	216	43.4	7.98014E-001	4.61028E-010	0.00000E+000	7.98100E-001	8.00223E-005	4	...........	 0.01
CURVE2	TABLE
	Pt	T	Vf	Im	Vu	Sig	Ach	IERange	Over	Temp
	#	s	V vs. Ref.	A	V	V	V	#	bits	deg C
	217	43.6	7.89814E-001	3.03021E-010	0.00000E+000	7.90000E-001	8.00223E-005	4	...........	 0.01
	218	43.8	7.80214E-001	1.99017E-010	0.00000E+000	7.80000E-001	8.00223E-005	4	...........	 0.01
	219	44	7.69814E-001	1.33015E-010	0.00000E+000	7.70000E-001	8.00223E-005	4	...........	 0.01
	220	44.2	7.60014E-001	8.70131E-011	0.00000E+000	7.60000E-001	8.00223E-005	4	...........	 0.01
	221	44.4	7.49814E-001	4.90117E-011	0.00000E+000	7.50000E-001	8.00223E-005	4	...........	 0.01
	222	44.6	7.40014E-001	2.70108E-011	0.00000E+000	7.40000E-001	-2.19978E-004	4	...........	 0.01
	223	44.8	7.30314E-001	5.00999E-012	0.00000E+000	7.30000E-001	8.00223E-005	4	...........	 0.01
	224	45	7.19814E-001	-8.99055E-012	0.00000E+000	7.20000E-001	8.00223E-005	4	...........	 0.01
	225	45.2	7.10014E-001	-2.29911E-011	0.00000E+000	7.10000E-001	8.00223E-005	4	...........	 0.01
	226	45.4	7.00014E-001	-3.49915E-011	0.00000E+000	7.00000E-001	8.00223E-005	4	...........	 0.01
	227	45.6	6.90014E-001	-4.09918E-011	0.00000E+000	6.90000E-001	8.00223E-005	4	...........	 0.01
	228	45.8	6.80214E-001	-4.69920E-011	0.00000E+000	6.80000E-001	8.00223E-005	4	...........	 0.01
	229	46	6.70014E-001	-5.09922E-011	0.00000E+000	6.70000E-001	8.00223E-005	4	...........	 0.01
	230	46.2	6.60014E-001	-5.49923E-011	0.00000E+000	6.60000E-001	8.00223E-005	4	...........	 0.01
	231	46.4	6.49814E-001	-5.49923E-011	0.00000E+000	6.50000E-001	8.00223E-005	4	...........	 0.01
	232	46.6	6.40014E-001	-5.29922E-011	0.00000E+000	6.40000E-001	8.00223E-005	4	...........	 0.01
	233	46.8	6.30014E-001	-5.69924E-011	0.00000E+000	6.30000E-001	8.00223E-005	4	...........	 0.01
	234	47	6.20014E-001	-5.69924E-011	0.00000E+000	6.20000E-001	8.00223E-005	4	...........	 0.01
	235	47.2	6.09914E-001	-5.69924E-011	0.00000E+000	6.10000E-001	8.00223E-005	4	...........	 0.01
	236	47.4	6.00014E-001	-6.09925E-011	0.00000E+000	6.00000E-001	-3.19978E-004	4	...........	 0.01
	237	47.6	5.90014E-001	-6.09925E-011	0.00000E+000	5.90000E-001	8.00223E-005	4	...........	 0.01
	238	47.8	5.80014E-001	-6.29926E-011	0.00000E+000	5.80000E-001	8.00223E-005	4	...........	 0.01
	239	48	5.70214E-001	-6.29926E-011	0.00000E+000	5.70000E-001	8.00223E-005	4	...........	 0.01
	240	48.2	5.60014E-001	-6.69928E-011	0.00000E+000	5.60000E-001	8.00223E-005	4	...........	 0.01
	241	48.4	5.50014E-001	-6.69928E-011	0.00000E+000	5.50000E-001	8.00223E-005	4	...........	 0.01
	242	48.6	5.40214E-001	-7.09929E-011	0.00000E+000	5.40000E-001	8.00223E-005	4	...........	 0.01
	243	48.8	5.30214E-001	-6.29926E-011	0.00000E+000	5.30000E-001	8.00223E-005	4	...........	 0.01
	244	49	5.20014E-001	-7.09929E-011	0.00000E+000	5.20000E-001	8.00223E-005	4	...........	 0.01
	245	49.2	5.10014E-001	-6.69928E-011	0.00000E+000	5.10000E-001	-2.19978E-004	4	...........	 0.01
	246	49.4	5.00014E-001	-7.09929E-011	0.00000E+000	5.00000E-001	8.00223E-005	4	...........	 0.01
	247	49.6	4.90214E-001	-7.09929E-011	0.00000E+000	4.90000E-001	8.00223E-005	4	...........	 0.01
	248	49.8	4.80014E-001	-7.29930E-011	0.00000E+000	4.80000E-001	8.00223E-005	4	...........	 0.01
	249	50	4.70014E-001	-7.49931E-011	0.00000E+000	4.70000E-001	8.00223E-005	4	...........	 0.01
	250	50.2	4.60014E-001	-7.29930E-011	0.00000E+000	4.60000E-001	8.00223E-005	4	...........	 0.01
	251	50.4	4.49814E-001	-7.69932E-011	0.00000E+000	4.50000E-001	8.00223E-005	4	...........	 0.01
	252	50.6	4.40014E-001	-8.29934E-011	0.00000E+000	4.40000E-001	8.00223E-005	4	...........	 0.01
	253	50.8	4.30014E-001	-8.29934E-011	0.00000E+000	4.30000E-001	8.00223E-005	4	...........	 0.01
	254	51	4.20214E-001	-8.69935E-011	0.00000E+000	4.20000E-001	8.00223E-005	4	...........	 0.01
	255	51.2	4.10014E-001	-8.29934E-011	0.00000E+000	4.10000E-001	8.00223E-005	4	...........	 0.01
	256	51.4	4.00214E-001	-8.89936E-011	0.00000E+000	4.00000E-001	8.00223E-005	4	...........	 0.01
	257	51.6	3.90014E-001	-9.29938E-011	0.00000E+000	3.90000E-001	8.00223E-005	4	...........	 0.01
	258	51.8	3.80014E-001	-9.49938E-011	0.00000E+000	3.80000E-001	8.00223E-005	4	...........	 0.01
	259	52	3.70014E-001	-9.49938E-011	0.00000E+000	3.70000E-001	8.00223E-005	4	...........	 0.01
	260	52.2	3.60014E-001	-9.89940E-011	0.00000E+000	3.60000E-001	8.00223E-005	4	...........	 0.01
	261	52.4	3.50014E-001	-1.02994E-010	0.00000E+000	3.50000E-001	8.00223E-005	4	...........	 0.01
	262	52.6	3.40014E-001	-1.02994E-010	0.00000E+000	3.40000E-001	8.00223E-005	4	...........	 0.01
	263	52.8	3.30014E-001	-1.02994E-010	0.00000E+000	3.30000E-001	8.00223E-005	4	...........	 0.01
	264	53	3.20014E-001	-1.04994E-010	0.00000E+000	3.20000E-001	8.00223E-005	4	...........	 0.01
	265	53.2	3.10014E-001	-1.04994E-010	0.00000E+000	3.10000E-001	8.00223E-005	4	...........	 0.01
	266	53.4	3.00214E-001	-1.10994E-010	0.00000E+000	3.00000E-001	8.00223E-005	4	...........	 0.01
	267	53.6	2.90214E-001	-1.10994E-010	0.00000E+000	2.90000E-001	8.00223E-005	4	...........	 0.01
	268	53.8	2.80014E-001	-1.12995E-010	0.00000E+000	2.80000E-001	8.00223E-005	4	...........	 0.01
	269	54	2.70014E-001	-1.16995E-010	0.00000E+000	2.70000E-001	8.00223E-005	4	...........	 0.01
	270	54.2	2.60014E-001	-1.18995E-010	0.00000E+000	2.60000E-001	8.00223E-005	4	...........	 0.01
	271	54.4	2.50214E-001	-1.20995E-010	0.00000E+000	2.50000E-001	8.00223E-005	4	...........	 0.01
	272	54.6	2.40014E-001	-1.24995E-010	0.00000E+000	2.40000E-001	1.80022E-004	4	...........	 0.01
	273	54.8	2.30014E-001	-1.24995E-010	0.00000E+000	2.30000E-001	8.00223E-005	4	...........	 0.01
	274	55	2.20014E-001	-1.30995E-010	0.00000E+000	2.20000E-001	8.00223E-005	4	...........	 0.01
	275	55.2	2.10014E-001	-1.34995E-010	0.00000E+000	2.10000E-001	8.00223E-005	4	...........	 0.01
	276	55.4	2.00014E-001	-1.36995E-010	0.00000E+000	2.00000E-001	8.00223E-005	4	...........	 0.01
	277	55.6	1.90214E-001	-1.40996E-010	0.00000E+000	1.90000E-001	8.00223E-005	4	...........	 0.01
	278	55.8	1.80014E-001	-1.42996E-010	0.00000E+000	1.80000E-001	8.00223E-005	4	...........	 0.01
	279	56	1.70414E-001	-1.46996E-010	0.00000E+000	1.70000E-001	8.00223E-005	4	...........	 0.01
	280	56.2	1.60014E-001	-1.46996E-010	0.00000E+000	1.60000E-001	8.00223E-005	4	...........	 0.01
	281	56.4	1.50014E-001	-1.50996E-010	0.00000E+000	1.50000E-001	8.00223E-005	4	...........	 0.01
	282	56.6	1.40214E-001	-1.50996E-010	0.00000E+000	1.40000E-001	8.00223E-005	4	...........	 0.01
	283	56.8	1.30414E-001	-1.58996E-010	0.00000E+000	1.30000E-001	8.00223E-005	4	...........	 0.01
	284	57	1.20014E-001	-1.56996E-010	0.00000E+000	1.20000E-001	8.00223E-005	4	...........	 0.01
	285	57.2	1.10214E-001	-1.56996E-010	0.00000E+000	1.10000E-001	8.00223E-005	4	...........	 0.01
	286	57.4	1.00014E-001	-1.58996E-010	0.00000E+000	1.00000E-001	8.00223E-005	4	...........	 0.01
	287	57.6	8.98138E-002	-1.58996E-010	0.00000E+000	9.00000E-002	8.00223E-005	4	...........	 0.01
	288	57.8	8.00138E-002	-1.56996E-010	0.00000E+000	8.00000E-002	-3.19978E-004	4	...........	 0.01
	289	58	7.04138E-002	-1.58996E-010	0.00000E+000	7.00000E-002	8.00223E-005	4	...........	 0.01
	290	58.2	6.00138E-002	-1.58996E-010	0.00000E+000	6.00000E-002	8.00223E-005	4	...........	 0.01
	291	58.4	5.00138E-002	-1.62996E-010	0.00000E+000	5.00000E-002	8.00223E-005	4	...........	 0.01
	292	58.6	4.02138E-002	-1.60996E-010	0.00000E+000	4.00000E-002	8.00223E-005	4	...........	 0.01
	293	58.8	3.00138E-002	-1.62996E-010	0.00000E+000	3.00000E-002	8.00223E-005	4	...........	 0.01
	294	59	2.00138E-002	-1.62996E-010	0.00000E+000	2.00000E-002	8.00223E-005	4	...........	 0.01
	295	59.2	1.02138E-002	-1.68997E-010	0.00000E+000	1.00000E-002	8.00223E-005	4	...........	 0.01
	296	59.4	1.37908E-005	-1.70997E-010	0.00000E+000	7.45058E-009	-3.19978E-004	4	...........	 0.01
	297	59.6	-1.01862E-002	-1.72997E-010	0.00000E+000	-1.00000E-002	-3.19978E-004	4	...........	 0.01
	298	59.8	-1.99862E-002	-1.82997E-010	0.00000E+000	-2.00000E-002	8.00223E-005	4	...........	 0.01
	299	60	-3.01862E-002	-1.90998E-010	0.00000E+000	-3.00000E-002	8.00223E-005	4	...........	 0.01
	300	60.2	-3.99862E-002	-2.04998E-010	0.00000E+000	-4.00000E-002	8.00223E-005	4	...........	 0.01
	301	60.4	-5.01862E-002	-2.20999E-010	0.00000E+000	-5.00000E-002	8.00223E-005	4	...........	 0.01
	302	60.6	-5.99862E-002	-2.38999E-010	0.00000E+000	-6.00000E-002	8.00223E-005	4	...........	 0.01
	303	60.8	-6.97862E-002	-2.63000E-010	0.00000E+000	-7.00000E-002	8.00223E-005	4	...........	 0.01
	304	61	-7.99862E-002	-2.91001E-010	0.00000E+000	-8.00000E-002	8.00223E-005	4	...........	 0.01
	305	61.2	-8.97862E-002	-3.35003E-010	0.00000E+000	-9.00000E-002	8.00223E-005	4	...........	 0.01
	306	61.4	-9.99862E-002	-3.83005E-010	0.00000E+000	-1.00000E-001	8.00223E-005	4	...........	 0.01
	307	61.6	-1.09986E-001	-4.41007E-010	0.00000E+000	-1.10000E-001	8.00223E-005	4	...........	 0.01
	308	61.8	-1.19986E-001	-5.21010E-010	0.00000E+000	-1.20000E-001	8.00223E-005	4	...........	 0.01
	309	62	-1.29586E-001	-6.19014E-010	0.00000E+000	-1.30000E-001	8.00223E-005	4	...........	 0.01
	310	62.2	-1.39786E-001	-7.39019E-010	0.00000E+000	-1.40000E-001	8.00223E-005	4	...........	 0.01
	311	62.4	-1.49786E-001	-8.87024E-010	0.00000E+000	-1.50000E-001	8.00223E-005	4	...........	 0.01
	312	62.6	-1.59786E-001	-1.06303E-009	0.00000E+000	-1.60000E-001	8.00223E-005	4	...........	 0.01
	313	62.8	-1.70086E-001	-1.27104E-009	0.00000E+000	-1.70000E-001	8.00223E-005	4	...........	 0.01
	314	63	-1.79986E-001	-1.50505E-009	0.00000E+000	-1.80000E-001	8.00223E-005	4	...........	 0.01
	315	63.2	-1.89786E-001	-1.79906E-009	0.00000E+000	-1.90000E-001	8.00223E-005	4	...........	 0.01
	316	63.4	-1.99786E-001	-2.11907E-009	0.00000E+000	-2.00000E-001	8.00223E-005	4	...........	 0.01
	317	63.6	-2.09786E-001	-2.47309E-009	0.00000E+000	-2.10000E-001	8.00223E-005	4	...........	 0.01
	318	63.8	-2.19786E-001	-2.85710E-009	0.00000E+000	-2.20000E-001	8.00223E-005	4	...........	 0.01
	319	64	-2.29786E-001	-3.27312E-009	0.00000E+000	-2.30000E-001	8.00223E-005	4	...........	 0.01
	320	64.2	-2.39986E-001	-3.69913E-009	0.00000E+000	-2.40000E-001	8.00223E-005	4	...........	 0.01
	321	64.4	-2.49786E-001	-4.13515E-009	0.00000E+000	-2.50000E-001	8.00223E-005	4	...........	 0.01
	322	64.6	-2.59786E-001	-4.56317E-009	0.00000E+000	-2.60000E-001	8.00223E-005	4	...........	 0.01
	323	64.8	-2.69786E-001	-4.98318E-009	0.00000E+000	-2.70000E-001	8.00223E-005	4	...........	 0.01
	324	65	-2.80186E-001	-5.38320E-009	0.00000E+000	-2.80000E-001	8.00223E-005	4	...........	 0.01
	325	65.2	-2.89786E-001	-5.74521E-009	0.00000E+000	-2.90000E-001	8.00223E-005	4	...........	 0.01
	326	65.4	-2.99786E-001	-6.08722E-009	0.00000E+000	-3.00000E-001	8.00223E-005	4	...........	 0.01
	327	65.6	-3.09586E-001	-6.39324E-009	0.00000E+000	-3.10000E-001	8.00223E-005	4	...........	 0.01
	328	65.8	-3.19786E-001	-6.67525E-009	0.00000E+000	-3.20000E-001	8.00223E-005	4	...........	 0.01
	329	66	-3.29786E-001	-6.92126E-009	0.00000E+000	-3.30000E-001	8.00223E-005	4	...........	 0.01
	330	66.2	-3.39786E-001	-7.15126E-009	0.00000E+000	-3.40000E-001	8.00223E-005	4	...........	 0.01
	331	66.4	-3.49786E-001	-7.35327E-009	0.00000E+000	-3.50000E-001	8.00223E-005	4	...........	 0.01
	332	66.6	-3.59786E-001	-7.52128E-009	0.00000E+000	-3.60000E-001	8.00223E-005	4	...........	 0.01
	333	66.8	-3.69986E-001	-7.69929E-009	0.00000E+000	-3.70000E-001	8.00223E-005	4	...........	 0.01
	334	67	-3.79986E-001	-7.84529E-009	0.00000E+000	-3.80000E-001	8.00223E-005	4	...........	 0.01
	335	67.2	-3.89586E-001	-7.99130E-009	0.00000E+000	-3.90000E-001	8.00223E-005	4	...........	 0.01
	336	67.4	-3.99786E-001	-8.11930E-009	0.00000E+000	-4.00000E-001	8.00223E-005	4	...........	 0.01
	337	67.6	-4.09586E-001	-8.24731E-009	0.00000E+000	-4.10000E-001	8.00223E-005	4	...........	 0.01
	338	67.8	-4.19986E-001	-8.36731E-009	0.00000E+000	-4.20000E-001	-2.19978E-004	4	...........	 0.01
	339	68	-4.29786E-001	-8.48732E-009	0.00000E+000	-4.30000E-001	8.00223E-005	4	...........	 0.01
	340	68.2	-4.39786E-001	-8.61132E-009	0.00000E+000	-4.40000E-001	8.00223E-005	4	...........	 0.01
	341	68.4	-4.49786E-001	-8.72732E-009	0.00000E+000	-4.50000E-001	8.00223E-005	4	...........	 0.01
	342	68.6	-4.59786E-001	-8.84933E-009	0.00000E+000	-4.60000E-001	8.00223E-005	4	...........	 0.01
	343	68.8	-4.69586E-001	-8.97533E-009	0.00000E+000	-4.70000E-001	8.00223E-005	4	...........	 0.01
	344	69	-4.79786E-001	-9.11334E-009	0.00000E+000	-4.80000E-001	8.00223E-005	4	...........	 0.01
	345	69.2	-4.89986E-001	-9.25534E-009	0.00000E+000	-4.90000E-001	-3.19978E-004	4	...........	 0.01
	346	69.4	-4.99786E-001	-9.40135E-009	0.00000E+000	-5.00000E-001	8.00223E-005	4	...........	 0.01
	347	69.6	-5.09786E-001	-9.56736E-009	0.00000E+000	-5.10000E-001	8.00223E-005	4	...........	 0.01
	348	69.8	-5.19786E-001	-9.73136E-009	0.00000E+000	-5.20000E-001	8.00223E-005	4	...........	 0.01
	349	70	-5.29786E-001	-9.91937E-009	0.00000E+000	-5.30000E-001	8.00223E-005	4	...........	 0.01
	350	70.2	-5.39786E-001	-1.01194E-008	0.00000E+000	-5.40000E-001	8.00223E-005	4	...........	 0.01
	351	70.4	-5.49586E-001	-1.03354E-008	0.00000E+000	-5.50000E-001	8.00223E-005	4	...........	 0.01
	352	70.6	-5.59786E-001	-1.05614E-008	0.00000E+000	-5.60000E-001	8.00223E-005	4	...........	 0.01
	353	70.8	-5.69586E-001	-1.08034E-008	0.00000E+000	-5.70000E-001	8.00223E-005	4	...........	 0.01
	354	71	-5.79786E-001	-1.10634E-008	0.00000E+000	-5.80000E-001	8.00223E-005	4	...........	 0.01
	355	71.2	-5.89786E-001	-1.13354E-008	0.00000E+000	-5.90000E-001	8.00223E-005	4	...........	 0.01
	356	71.4	-5.99786E-001	-1.16174E-008	0.00000E+000	-6.00000E-001	8.00223E-005	4	...........	 0.01
	357	71.6	-5.89586E-001	-1.11514E-008	0.00000E+000	-5.90000E-001	8.00223E-005	4	...........	 0.01
	358	71.8	-5.79786E-001	-1.07834E-008	0.00000E+000	-5.80000E-001	8.00223E-005	4	...........	 0.01
	359	72	-5.69986E-001	-1.04754E-008	0.00000E+000	-5.70000E-001	8.00223E-005	4	...........	 0.01
	360	72.2	-5.59786E-001	-1.02014E-008	0.00000E+000	-5.60000E-001	8.00223E-005	4	...........	 0.01
[...]
	917	183.6	-5.89786E-001	-1.10474E-008	0.00000E+000	-5.90000E-001	8.00223E-005	4	...........	 0.01
	918	183.8	-5.79786E-001	-1.06914E-008	0.00000E+000	-5.80000E-001	8.00223E-005	4	...........	 0.01
	919	184	-5.69586E-001	-1.03994E-008	0.00000E+000	-5.70000E-001	8.00223E-005	4	...........	 0.01
	920	184.2	-5.59786E-001	-1.01474E-008	0.00000E+000	-5.60000E-001	8.00223E-005	4	...........	 0.01
	921	184.4	-5.49786E-001	-9.89737E-009	0.00000E+000	-5.50000E-001	8.00223E-005	4	...........	 0.01
	922	184.6	-5.39786E-001	-9.67136E-009	0.00000E+000	-5.40000E-001	8.00223E-005	4	...........	 0.01
	923	184.8	-5.29986E-001	-9.46135E-009	0.00000E+000	-5.30000E-001	8.00223E-005	4	...........	 0.01
	924	185	-5.19786E-001	-9.26335E-009	0.00000E+000	-5.20000E-001	8.00223E-005	4	...........	 0.01
	925	185.2	-5.09786E-001	-9.07134E-009	0.00000E+000	-5.10000E-001	8.00223E-005	4	...........	 0.01
	926	185.4	-4.99786E-001	-8.88733E-009	0.00000E+000	-5.00000E-001	8.00223E-005	4	...........	 0.01
	927	185.6	-4.89786E-001	-8.70732E-009	0.00000E+000	-4.90000E-001	8.00223E-005	4	...........	 0.01
	928	185.8	-4.79786E-001	-8.53932E-009	0.00000E+000	-4.80000E-001	8.00223E-005	4	...........	 0.01
	929	186	-4.69586E-001	-8.36731E-009	0.00000E+000	-4.70000E-001	8.00223E-005	4	...........	 0.01
	930	186.2	-4.59786E-001	-8.20130E-009	0.00000E+000	-4.60000E-001	8.00223E-005	4	...........	 0.01
	931	186.4	-4.49786E-001	-8.03330E-009	0.00000E+000	-4.50000E-001	8.00223E-005	4	...........	 0.01
	932	186.6	-4.39786E-001	-7.88929E-009	0.00000E+000	-4.40000E-001	8.00223E-005	4	...........	 0.01
	933	186.8	-4.29786E-001	-7.72729E-009	0.00000E+000	-4.30000E-001	8.00223E-005	4	...........	 0.01
	934	187	-4.19786E-001	-7.56728E-009	0.00000E+000	-4.20000E-001	-3.19978E-004	4	...........	 0.01
	935	187.2	-4.09986E-001	-7.40527E-009	0.00000E+000	-4.10000E-001	-3.19978E-004	4	...........	 0.01
	936	187.4	-3.99786E-001	-7.23927E-009	0.00000E+000	-4.00000E-001	-3.19978E-004	4	...........	 0.01
	937	187.6	-3.89686E-001	-7.06126E-009	0.00000E+000	-3.90000E-001	8.00223E-005	4	...........	 0.01
	938	187.8	-3.79986E-001	-6.88125E-009	0.00000E+000	-3.80000E-001	8.00223E-005	4	...........	 0.01
	939	188	-3.69586E-001	-6.69125E-009	0.00000E+000	-3.70000E-001	8.00223E-005	4	...........	 0.01
	940	188.2	-3.59786E-001	-6.47924E-009	0.00000E+000	-3.60000E-001	8.00223E-005	4	...........	 0.01
	941	188.4	-3.49786E-001	-6.25523E-009	0.00000E+000	-3.50000E-001	8.00223E-005	4	...........	 0.01
	942	188.6	-3.39786E-001	-6.00922E-009	0.00000E+000	-3.40000E-001	8.00223E-005	4	...........	 0.01
	943	188.8	-3.29786E-001	-5.74521E-009	0.00000E+000	-3.30000E-001	8.00223E-005	4	...........	 0.01
	944	189	-3.19786E-001	-5.45520E-009	0.00000E+000	-3.20000E-001	8.00223E-005	4	...........	 0.01
	945	189.2	-3.09586E-001	-5.14319E-009	0.00000E+000	-3.10000E-001	8.00223E-005	4	...........	 0.01
	946	189.4	-2.99786E-001	-4.80917E-009	0.00000E+000	-3.00000E-001	8.00223E-005	4	...........	 0.01
	947	189.6	-2.89786E-001	-4.45516E-009	0.00000E+000	-2.90000E-001	8.00223E-005	4	...........	 0.01
	948	189.8	-2.79986E-001	-4.08315E-009	0.00000E+000	-2.80000E-001	8.00223E-005	4	...........	 0.01
	949	190	-2.69786E-001	-3.69513E-009	0.00000E+000	-2.70000E-001	-2.19978E-004	4	...........	 0.01
	950	190.2	-2.59986E-001	-3.29912E-009	0.00000E+000	-2.60000E-001	8.00223E-005	4	...........	 0.01
	951	190.4	-2.49986E-001	-2.90510E-009	0.00000E+000	-2.50000E-001	8.00223E-005	4	...........	 0.01
	952	190.6	-2.39786E-001	-2.51909E-009	0.00000E+000	-2.40000E-001	8.00223E-005	4	...........	 0.01
	953	190.8	-2.30186E-001	-2.14507E-009	0.00000E+000	-2.30000E-001	8.00223E-005	4	...........	 0.01
	954	191	-2.19786E-001	-1.80106E-009	0.00000E+000	-2.20000E-001	8.00223E-005	4	...........	 0.01
	955	191.2	-2.09786E-001	-1.48305E-009	0.00000E+000	-2.10000E-001	-3.19978E-004	4	...........	 0.01
	956	191.4	-1.99986E-001	-1.19304E-009	0.00000E+000	-2.00000E-001	8.00223E-005	4	...........	 0.01
	957	191.6	-1.89786E-001	-9.47027E-010	0.00000E+000	-1.90000E-001	8.00223E-005	4	...........	 0.01
	958	191.8	-1.79986E-001	-7.23018E-010	0.00000E+000	-1.80000E-001	8.00223E-005	4	...........	 0.01
	959	192	-1.69886E-001	-5.47011E-010	0.00000E+000	-1.70000E-001	8.00223E-005	4	...........	 0.01
	960	192.2	-1.59986E-001	-3.87005E-010	0.00000E+000	-1.60000E-001	8.00223E-005	4	...........	 0.01
	961	192.4	-1.49786E-001	-2.63000E-010	0.00000E+000	-1.50000E-001	8.00223E-005	4	...........	 0.01
	962	192.6	-1.39986E-001	-1.58996E-010	0.00000E+000	-1.40000E-001	8.00223E-005	4	...........	 0.01
	963	192.8	-1.29986E-001	-8.29934E-011	0.00000E+000	-1.30000E-001	8.00223E-005	4	...........	 0.01
	964	193	-1.19986E-001	-1.89909E-011	0.00000E+000	-1.20000E-001	8.00223E-005	4	...........	 0.01
	965	193.2	-1.09986E-001	2.90109E-011	0.00000E+000	-1.10000E-001	8.00223E-005	4	...........	 0.01
	966	193.4	-9.99862E-002	7.30126E-011	0.00000E+000	-1.00000E-001	8.00223E-005	4	...........	 0.01
	967	193.6	-8.97862E-002	9.30134E-011	0.00000E+000	-9.00000E-002	8.00223E-005	4	...........	 0.01
	968	193.8	-7.97862E-002	1.15014E-010	0.00000E+000	-8.00000E-002	8.00223E-005	4	...........	 0.01
	969	194	-7.01862E-002	1.29015E-010	0.00000E+000	-7.00000E-002	8.00223E-005	4	...........	 0.01
	970	194.2	-5.99862E-002	1.37015E-010	0.00000E+000	-6.00000E-002	8.00223E-005	4	...........	 0.01
	971	194.4	-4.99862E-002	1.49016E-010	0.00000E+000	-5.00000E-002	8.00223E-005	4	...........	 0.01
	972	194.6	-3.97862E-002	1.59016E-010	0.00000E+000	-4.00000E-002	8.00223E-005	4	...........	 0.01
	973	194.8	-3.01862E-002	1.59016E-010	0.00000E+000	-3.00000E-002	-1.19978E-004	4	...........	 0.01
	974	195	-1.99862E-002	1.57016E-010	0.00000E+000	-2.00000E-002	-3.19978E-004	4	...........	 0.01
	975	195.2	-1.01862E-002	1.65016E-010	0.00000E+000	-1.00000E-002	8.00223E-005	4	...........	 0.01
	976	195.4	1.37908E-005	1.65016E-010	0.00000E+000	7.45058E-009	8.00223E-005	4	...........	 0.01
	977	195.6	9.81379E-003	1.65016E-010	0.00000E+000	1.00000E-002	8.00223E-005	4	...........	 0.01
	978	195.8	2.02138E-002	1.67016E-010	0.00000E+000	2.00000E-002	-3.19978E-004	4	...........	 0.01
	979	196	3.00138E-002	1.57016E-010	0.00000E+000	3.00000E-002	8.00223E-005	4	...........	 0.01
	980	196.2	3.98138E-002	1.67016E-010	0.00000E+000	4.00000E-002	8.00223E-005	4	...........	 0.01
	981	196.4	4.98138E-002	1.61016E-010	0.00000E+000	5.00000E-002	8.00223E-005	4	...........	 0.01
	982	196.6	6.02138E-002	1.61016E-010	0.00000E+000	6.00000E-002	8.00223E-005	4	...........	 0.01
	983	196.8	6.98138E-002	1.61016E-010	0.00000E+000	7.00000E-002	8.00223E-005	4	...........	 0.01
	984	197	8.02138E-002	1.57016E-010	0.00000E+000	8.00000E-002	8.00223E-005	4	...........	 0.01
	985	197.2	8.98138E-002	1.65016E-010	0.00000E+000	9.00000E-002	8.00223E-005	4	...........	 0.01
	986	197.4	1.00014E-001	1.67016E-010	0.00000E+000	1.00000E-001	8.00223E-005	4	...........	 0.01
	987	197.6	1.10214E-001	1.69016E-010	0.00000E+000	1.10000E-001	8.00223E-005	4	...........	 0.01
	988	197.8	1.20014E-001	1.69016E-010	0.00000E+000	1.20000E-001	8.00223E-005	4	...........	 0.01
	989	198	1.30214E-001	1.69016E-010	0.00000E+000	1.30000E-001	8.00223E-005	4	...........	 0.01
	990	198.2	1.40014E-001	1.75017E-010	0.00000E+000	1.40000E-001	8.00223E-005	4	...........	 0.01
	991	198.4	1.50014E-001	1.73016E-010	0.00000E+000	1.50000E-001	8.00223E-005	4	...........	 0.01
	992	198.6	1.60014E-001	1.83017E-010	0.00000E+000	1.60000E-001	8.00223E-005	4	...........	 0.01
	993	198.8	1.70214E-001	1.85017E-010	0.00000E+000	1.70000E-001	8.00223E-005	4	...........	 0.01
	994	199	1.80014E-001	1.89017E-010	0.00000E+000	1.80000E-001	8.00223E-005	4	...........	 0.01
	995	199.2	1.90214E-001	1.99017E-010	0.00000E+000	1.90000E-001	8.00223E-005	4	...........	 0.01
	996	199.4	2.00214E-001	2.09018E-010	0.00000E+000	2.00000E-001	8.00223E-005	4	...........	 0.01
	997	199.6	2.10214E-001	2.15018E-010	0.00000E+000	2.10000E-001	8.00223E-005	4	...........	 0.01
	998	199.8	2.20014E-001	2.21018E-010	0.00000E+000	2.20000E-001	8.00223E-005	4	...........	 0.01
	999	200	2.29914E-001	2.35019E-010	0.00000E+000	2.30000E-001	8.00223E-005	4	...........	 0.01
	1000	200.2	2.40014E-001	2.33019E-010	0.00000E+000	2.40000E-001	8.00223E-005	4	...........	 0.01
	1001	200.4	2.49914E-001	2.39019E-010	0.00000E+000	2.50000E-001	8.00223E-005	4	...........	 0.01
	1002	200.6	2.59914E-001	2.41019E-010	0.00000E+000	2.60000E-001	8.00223E-005	4	...........	 0.01
	1003	200.8	2.70014E-001	2.47019E-010	0.00000E+000	2.70000E-001	8.00223E-005	4	...........	 0.01
	1004	201	2.80014E-001	2.45019E-010	0.00000E+000	2.80000E-001	8.00223E-005	4	...........	 0.01
	1005	201.2	2.90014E-001	2.49019E-010	0.00000E+000	2.90000E-001	8.00223E-005	4	...........	 0.01
	1006	201.4	2.99914E-001	2.47019E-010	0.00000E+000	3.00000E-001	8.00223E-005	4	...........	 0.01
	1007	201.6	3.10014E-001	2.41019E-010	0.00000E+000	3.10000E-001	8.00223E-005	4	...........	 0.01
	1008	201.8	3.19814E-001	2.35019E-010	0.00000E+000	3.20000E-001	8.00223E-005	4	...........	 0.01
	1009	202	3.30014E-001	2.33019E-010	0.00000E+000	3.30000E-001	8.00223E-005	4	...........	 0.01
	1010	202.2	3.40214E-001	2.17018E-010	0.00000E+000	3.40000E-001	8.00223E-005	4	...........	 0.01
	1011	202.4	3.50214E-001	2.17018E-010	0.00000E+000	3.50000E-001	8.00223E-005	4	...........	 0.01
	1012	202.6	3.60014E-001	2.17018E-010	0.00000E+000	3.60000E-001	8.00223E-005	4	...........	 0.01
	1013	202.8	3.70014E-001	2.09018E-010	0.00000E+000	3.70000E-001	8.00223E-005	4	...........	 0.01
	1014	203	3.80014E-001	2.05018E-010	0.00000E+000	3.80000E-001	8.00223E-005	4	...........	 0.01
	1015	203.2	3.90214E-001	1.99017E-010	0.00000E+000	3.90000E-001	8.00223E-005	4	...........	 0.01
	1016	203.4	4.00014E-001	2.01018E-010	0.00000E+000	4.00000E-001	8.00223E-005	4	...........	 0.01
	1017	203.6	4.10014E-001	2.01018E-010	0.00000E+000	4.10000E-001	-4.19978E-004	4	...........	 0.01
	1018	203.8	4.20014E-001	1.97017E-010	0.00000E+000	4.20000E-001	8.00223E-005	4	...........	 0.01
	1019	204	4.30014E-001	2.01018E-010	0.00000E+000	4.30000E-001	8.00223E-005	4	...........	 0.01
	1020	204.2	4.40014E-001	1.93017E-010	0.00000E+000	4.40000E-001	8.00223E-005	4	...........	 0.01
	1021	204.4	4.49414E-001	1.99017E-010	0.00000E+000	4.50000E-001	8.00223E-005	4	...........	 0.01
	1022	204.6	4.60014E-001	1.93017E-010	0.00000E+000	4.60000E-001	8.00223E-005	4	...........	 0.01
	1023	204.8	4.70014E-001	1.99017E-010	0.00000E+000	4.70000E-001	8.00223E-005	4	...........	 0.01
	1024	205	4.80014E-001	1.93017E-010	0.00000E+000	4.80000E-001	8.00223E-005	4	...........	 0.01
	1025	205.2	4.90214E-001	1.93017E-010	0.00000E+000	4.90000E-001	8.00223E-005	4	...........	 0.01
	1026	205.4	5.00214E-001	1.85017E-010	0.00000E+000	5.00000E-001	8.00223E-005	4	...........	 0.01
	1027	205.6	5.09814E-001	1.91017E-010	0.00000E+000	5.10000E-001	8.00223E-005	4	...........	 0.01
	1028	205.8	5.19814E-001	1.91017E-010	0.00000E+000	5.20000E-001	-3.19978E-004	4	...........	 0.01
	1029	206	5.29814E-001	1.93017E-010	0.00000E+000	5.30000E-001	8.00223E-005	4	...........	 0.01
	1030	206.2	5.39914E-001	1.91017E-010	0.00000E+000	5.40000E-001	8.00223E-005	4	...........	 0.01
	1031	206.4	5.49814E-001	1.93017E-010	0.00000E+000	5.50000E-001	8.00223E-005	4	...........	 0.01
	1032	206.6	5.60214E-001	1.85017E-010	0.00000E+000	5.60000E-001	8.00223E-005	4	...........	 0.01
	1033	206.8	5.70014E-001	1.89017E-010	0.00000E+000	5.70000E-001	8.00223E-005	4	...........	 0.01
	1034	207	5.80014E-001	1.99017E-010	0.00000E+000	5.80000E-001	8.00223E-005	4	...........	 0.01
	1035	207.2	5.89814E-001	1.99017E-010	0.00000E+000	5.90000E-001	-3.19978E-004	4	...........	 0.01
	1036	207.4	6.00014E-001	2.01018E-010	0.00000E+000	6.00000E-001	8.00223E-005	4	...........	 0.01
	1037	207.6	6.10214E-001	2.01018E-010	0.00000E+000	6.10000E-001	8.00223E-005	4	...........	 0.01
	1038	207.8	6.20214E-001	2.01018E-010	0.00000E+000	6.20000E-001	8.00223E-005	4	...........	 0.01
	1039	208	6.29814E-001	2.03018E-010	0.00000E+000	6.30000E-001	8.00223E-005	4	...........	 0.01
	1040	208.2	6.40014E-001	2.09018E-010	0.00000E+000	6.40000E-001	-3.19978E-004	4	...........	 0.01
	1041	208.4	6.50014E-001	2.15018E-010	0.00000E+000	6.50000E-001	8.00223E-005	4	...........	 0.01
	1042	208.6	6.60014E-001	2.17018E-010	0.00000E+000	6.60000E-001	8.00223E-005	4	...........	 0.01
	1043	208.8	6.69814E-001	2.17018E-010	0.00000E+000	6.70000E-001	8.00223E-005	4	...........	 0.01
	1044	209	6.79814E-001	2.21018E-010	0.00000E+000	6.80000E-001	8.00223E-005	4	...........	 0.01
	1045	209.2	6.90014E-001	2.31019E-010	0.00000E+000	6.90000E-001	8.00223E-005	4	...........	 0.01
	1046	209.4	7.00014E-001	2.37019E-010	0.00000E+000	7.00000E-001	8.00223E-005	4	...........	 0.01
	1047	209.6	7.09914E-001	2.47019E-010	0.00000E+000	7.10000E-001	8.00223E-005	4	...........	 0.01
	1048	209.8	7.19814E-001	2.51019E-010	0.00000E+000	7.20000E-001	8.00223E-005	4	...........	 0.01
	1049	210	7.29914E-001	2.67020E-010	0.00000E+000	7.30000E-001	-2.19978E-004	4	...........	 0.01
	1050	210.2	7.39914E-001	2.77020E-010	0.00000E+000	7.40000E-001	8.00223E-005	4	...........	 0.01
	1051	210.4	7.49814E-001	2.91021E-010	0.00000E+000	7.50000E-001	8.00223E-005	4	...........	 0.01
	1052	210.6	7.60014E-001	3.13022E-010	0.00000E+000	7.60000E-001	-3.19978E-004	4	...........	 0.01
	1053	210.8	7.69814E-001	3.37023E-010	0.00000E+000	7.70000E-001	8.00223E-005	4	...........	 0.01
	1054	211	7.80214E-001	3.69024E-010	0.00000E+000	7.80000E-001	8.00223E-005	4	...........	 0.01
	1055	211.2	7.89814E-001	4.17026E-010	0.00000E+000	7.90000E-001	8.00223E-005	4	...........	 0.01
	1056	211.4	8.00214E-001	4.73028E-010	0.00000E+000	8.00000E-001	8.00223E-005	4	...........	 0.01
CURVE5	TABLE
	Pt	T	Vf	Im	Vu	Sig	Ach	IERange	Over	Temp
	#	s	V vs. Ref.	A	V	V	V	#	bits	deg C
	1057	211.6	7.90014E-001	2.87021E-010	0.00000E+000	7.90000E-001	8.00223E-005	4	...........	 0.01
	1058	211.8	7.80014E-001	1.89017E-010	0.00000E+000	7.80000E-001	8.00223E-005	4	...........	 0.01
	1059	212	7.69814E-001	1.17014E-010	0.00000E+000	7.70000E-001	8.00223E-005	4	...........	 0.01
	1060	212.2	7.60214E-001	7.30126E-011	0.00000E+000	7.60000E-001	8.00223E-005	4	...........	 0.01
	1061	212.4	7.50014E-001	4.10114E-011	0.00000E+000	7.50000E-001	8.00223E-005	4	...........	 0.01
	1062	212.6	7.40214E-001	1.50104E-011	0.00000E+000	7.40000E-001	8.00223E-005	4	...........	 0.01
	1063	212.8	7.29814E-001	-9.90239E-013	0.00000E+000	7.30000E-001	8.00223E-005	4	...........	 0.01
	1064	213	7.19814E-001	-1.69909E-011	0.00000E+000	7.20000E-001	8.00223E-005	4	...........	 0.01
	1065	213.2	7.10014E-001	-3.49915E-011	0.00000E+000	7.10000E-001	8.00223E-005	4	...........	 0.01
	1066	213.4	7.00014E-001	-3.49915E-011	0.00000E+000	7.00000E-001	-2.19978E-004	4	...........	 0.01
	1067	213.6	6.90214E-001	-3.89917E-011	0.00000E+000	6.90000E-001	8.00223E-005	4	...........	 0.01
	1068	213.8	6.80014E-001	-4.29919E-011	0.00000E+000	6.80000E-001	-2.19978E-004	4	...........	 0.01
	1069	214	6.70014E-001	-4.69920E-011	0.00000E+000	6.70000E-001	8.00223E-005	4	...........	 0.01
	1070	214.2	6.60014E-001	-5.49923E-011	0.00000E+000	6.60000E-001	8.00223E-005	4	...........	 0.01
	1071	214.4	6.49814E-001	-5.49923E-011	0.00000E+000	6.50000E-001	8.00223E-005	4	...........	 0.01
	1072	214.6	6.40214E-001	-5.49923E-011	0.00000E+000	6.40000E-001	8.00223E-005	4	...........	 0.01
	1073	214.8	6.30014E-001	-5.49923E-011	0.00000E+000	6.30000E-001	8.00223E-005	4	...........	 0.01
	1074	215	6.20014E-001	-5.89925E-011	0.00000E+000	6.20000E-001	8.00223E-005	4	...........	 0.01
	1075	215.2	6.10214E-001	-5.69924E-011	0.00000E+000	6.10000E-001	8.00223E-005	4	...........	 0.01
	1076	215.4	6.00214E-001	-5.49923E-011	0.00000E+000	6.00000E-001	8.00223E-005	4	...........	 0.01
	1077	215.6	5.90014E-001	-6.09925E-011	0.00000E+000	5.90000E-001	8.00223E-005	4	...........	 0.01
	1078	215.8	5.80014E-001	-6.29926E-011	0.00000E+000	5.80000E-001	8.00223E-005	4	...........	 0.01
	1079	216	5.70014E-001	-6.09925E-011	0.00000E+000	5.70000E-001	-3.19978E-004	4	...........	 0.01
	1080	216.2	5.59914E-001	-6.29926E-011	0.00000E+000	5.60000E-001	8.00223E-005	4	...........	 0.01
	1081	216.4	5.49814E-001	-6.49927E-011	0.00000E+000	5.50000E-001	8.00223E-005	4	...........	 0.01
	1082	216.6	5.40014E-001	-6.69928E-011	0.00000E+000	5.40000E-001	8.00223E-005	4	...........	 0.01
	1083	216.8	5.29814E-001	-6.49927E-011	0.00000E+000	5.30000E-001	8.00223E-005	4	...........	 0.01
	1084	217	5.19814E-001	-6.69928E-011	0.00000E+000	5.20000E-001	8.00223E-005	4	...........	 0.01
	1085	217.2	5.10014E-001	-6.69928E-011	0.00000E+000	5.10000E-001	8.00223E-005	4	...........	 0.01
	1086	217.4	5.00214E-001	-7.09929E-011	0.00000E+000	5.00000E-001	8.00223E-005	4	...........	 0.01
	1087	217.6	4.90014E-001	-7.29930E-011	0.00000E+000	4.90000E-001	8.00223E-005	4	...........	 0.01
	1088	217.8	4.80014E-001	-7.09929E-011	0.00000E+000	4.80000E-001	8.00223E-005	4	...........	 0.01
	1089	218	4.70014E-001	-7.09929E-011	0.00000E+000	4.70000E-001	-3.19978E-004	4	...........	 0.01
	1090	218.2	4.60014E-001	-7.29930E-011	0.00000E+000	4.60000E-001	8.00223E-005	4	...........	 0.01
	1091	218.4	4.49814E-001	-7.89932E-011	0.00000E+000	4.50000E-001	8.00223E-005	4	...........	 0.01
	1092	218.6	4.40014E-001	-7.89932E-011	0.00000E+000	4.40000E-001	8.00223E-005	4	...........	 0.01
	1093	218.8	4.30014E-001	-8.29934E-011	0.00000E+000	4.30000E-001	8.00223E-005	4	...........	 0.01
	1094	219	4.20214E-001	-8.29934E-011	0.00000E+000	4.20000E-001	8.00223E-005	4	...........	 0.01
	1095	219.2	4.10214E-001	-8.69935E-011	0.00000E+000	4.10000E-001	8.00223E-005	4	...........	 0.01
	1096	219.4	4.00214E-001	-8.89936E-011	0.00000E+000	4.00000E-001	8.00223E-005	4	...........	 0.01
	1097	219.6	3.90014E-001	-9.09937E-011	0.00000E+000	3.90000E-001	8.00223E-005	4	...........	 0.01
	1098	219.8	3.80014E-001	-9.29938E-011	0.00000E+000	3.80000E-001	8.00223E-005	4	...........	 0.01
	1099	220	3.70214E-001	-9.49938E-011	0.00000E+000	3.70000E-001	-3.19978E-004	4	...........	 0.01
	1100	220.2	3.60214E-001	-9.69939E-011	0.00000E+000	3.60000E-001	8.00223E-005	4	...........	 0.01
	1101	220.4	3.50014E-001	-9.89940E-011	0.00000E+000	3.50000E-001	-2.19978E-004	4	...........	 0.01
	1102	220.6	3.40014E-001	-9.49938E-011	0.00000E+000	3.40000E-001	-1.19978E-004	4	...........	 0.01
	1103	220.8	3.30214E-001	-1.02994E-010	0.00000E+000	3.30000E-001	8.00223E-005	4	...........	 0.01
	1104	221	3.20214E-001	-1.04994E-010	0.00000E+000	3.20000E-001	8.00223E-005	4	...........	 0.01
	1105	221.2	3.09814E-001	-1.10994E-010	0.00000E+000	3.10000E-001	-3.19978E-004	4	...........	 0.01
	1106	221.4	3.00014E-001	-1.08994E-010	0.00000E+000	3.00000E-001	8.00223E-005	4	...........	 0.01
	1107	221.6	2.90214E-001	-1.10994E-010	0.00000E+000	2.90000E-001	8.00223E-005	4	...........	 0.01
	1108	221.8	2.80014E-001	-1.14995E-010	0.00000E+000	2.80000E-001	8.00223E-005	4	...........	 0.01
	1109	222	2.70414E-001	-1.18995E-010	0.00000E+000	2.70000E-001	8.00223E-005	4	...........	 0.01
	1110	222.2	2.59914E-001	-1.22995E-010	0.00000E+000	2.60000E-001	8.00223E-005	4	...........	 0.01
	1111	222.4	2.50414E-001	-1.20995E-010	0.00000E+000	2.50000E-001	8.00223E-005	4	...........	 0.01
	1112	222.6	2.39814E-001	-1.30995E-010	0.00000E+000	2.40000E-001	8.00223E-005	4	...........	 0.01
	1113	222.8	2.29614E-001	-1.22995E-010	0.00000E+000	2.30000E-001	8.00223E-005	4	...........	 0.01
	1114	223	2.20014E-001	-1.30995E-010	0.00000E+000	2.20000E-001	8.00223E-005	4	...........	 0.01
	1115	223.2	2.10014E-001	-1.30995E-010	0.00000E+000	2.10000E-001	8.00223E-005	4	...........	 0.01
	1116	223.4	2.00214E-001	-1.36995E-010	0.00000E+000	2.00000E-001	8.00223E-005	4	...........	 0.01
	1117	223.6	1.90014E-001	-1.34995E-010	0.00000E+000	1.90000E-001	8.00223E-005	4	...........	 0.01
	1118	223.8	1.80014E-001	-1.42996E-010	0.00000E+000	1.80000E-001	8.00223E-005	4	...........	 0.01
	1119	224	1.70214E-001	-1.44996E-010	0.00000E+000	1.70000E-001	8.00223E-005	4	...........	 0.01
	1120	224.2	1.60214E-001	-1.44996E-010	0.00000E+000	1.60000E-001	-2.19978E-004	4	...........	 0.01